Folder: GTIIT-HWSettings/Courses/Advance project (MSE)/Mo2C/XRD

Note: README.md
# **Created by a MSE student from GTIIT**
<div align=center><img width="424" height="128" alt="GtPic" src="https://www.gtiit.edu.cn/images/logo.png"/></div>

## **Foreword**

在广东以色列理工学院，材料系学生的生活是痛苦的。从大一到大四，没有一年是轻松的，愉快的。往前看，你会发现高三的疯狂到这里得到延续，不熬夜几次夜不好意思说是材料的；往后看，你会发现未来的生活早已被铺天盖地的课程绑架，从Jacob(现在退休了)到Gutter(#RIP#),从魔术师KDL到职业橄榄球员Fabian,偶尔会有ofer prag这样的老师闪耀在黑夜中，但也只是昙花一现，不过是黄昏那最后一抹夕阳；往旁边看，生物系的同学要么卷要么摆，人不人鬼不鬼，化工系在床上躺着刷手机，悠然自在，体检都不用去，数机在奔赴梦想，机械在搞高新科技，只有材料，学了几年，啥也不是。回首大学时光，发现当初实在走了太多弯路，以至于现在苦不堪言，于是想创建如此一个Repositories，分享直到现在储存的一些**材料系**作业答案，笔记等，~~以及记录自己编程学习的进度~~。

## **Creator's Personal Info**
**GTIIT MSE 3rd year student.** Favor in Computer Programming and Materials Engineering. Welcome to add my Wechat as friends.
<div align=center><img width="125" height="160" alt="WechatQR" src="https://www.gtiit.edu.cn/images/logo.png"/></div>
## **

 ## **Links**
- [GTIIT Website](https://www.gtiit.edu.cn/)

File: Mo2C.dat
5.0000 8650
5.2900 7751
5.5800 9154.98
5.8700 10066.7
6.1600 11869.7
6.4500 16906.5
6.7400 31632.8
7.0300 34041.1
7.3200 28013
7.6100 25150.4
7.9000 25089.4
8.1900 30634.9
8.4800 45802.9
8.7700 30700.7
9.0600 17579.9
9.3500 12350
9.6400 10325.8
9.9300 9316.51
10.2200 8517.95
10.5100 7541.79
10.8000 7165.36
11.0900 7100
11.3800 6680.08
11.6700 7089.9
11.9600 6663.34
12.2500 6051.53
12.5400 5879.38
12.8300 5383.05
13.1200 5766.73
13.4100 5355.98
13.7000 5000.31
13.9900 5115.28
14.2800 4635.81
14.5700 4961.21
14.8600 4561.33
15.1500 4622.2
15.4400 4752.56
15.7300 4532.68
16.0200 4356.88
16.3100 4297.81
16.6000 4290.56
16.8900 4826.84
17.1800 5650
17.4700 5815.48
17.7600 6052.95
18.0500 5716.67
18.3400 5791.61
18.6300 5906.7
18.9200 5719.21
19.2100 5867.2
19.5000 5967.58
19.7900 5687.21
20.0800 6031.21
20.3700 5650
20.6600 5904.86
20.9500 5704.99
21.2400 5659.43
21.5300 5876.29
21.8200 5825.69
22.1100 6456.77
22.4000 6549.78
22.6900 5729.27
22.9800 6293.58
23.2700 6356.75
23.5600 6338
23.8500 7175.26
24.1400 7697.74
24.4300 7871.25
24.7200 8715.83
25.0100 9583.75
25.3000 11624.6
25.5900 14572.2
25.8800 21713.1
26.1700 17519.1
26.4600 12096.4
26.7500 9978.55
27.0400 8712.19
27.3300 7899.78
27.6200 7334.47
27.9100 7087.23
28.2000 7111.17
28.4900 6507.34
28.7800 6396.22
29.0700 6135.07
29.3600 6157.98
29.6500 5816.88
29.9400 5874.22
30.2300 5930.21
30.5200 5922.31
30.8100 5613.05
31.1000 5929.69
31.3900 5853.39
31.6800 5736.49
31.9700 6060.57
32.2600 6060.78
32.5500 6221.66
32.8400 6176.14
33.1300 6043.07
33.4200 6777.98
33.7100 6559.95
34.0000 7315.31
34.2900 8016.67
34.5800 9357.35
34.8700 11562.6
35.1600 9190.55
35.4500 6971.32
35.7400 6916.89
36.0300 9293.88
36.3200 12605.2
36.6100 12617.2
36.9000 10929.2
37.1900 11470.9
37.4800 11548.2
37.7700 11029.1
38.0600 14775.1
38.3500 18351.8
38.6400 21398
38.9300 14914.9
39.2200 10929.5
39.5100 12680.7
39.8000 9561.41
40.0900 11066.2
40.3800 8748.41
40.6700 8313.31
40.9600 8113
41.2500 9383.33
41.5400 9541.09
41.8300 9825.24
42.1200 11774.7
42.4100 13834.4
42.7000 12428.5
42.9900 9583.91
43.2800 8543.02
43.5700 8168.35
43.8600 8174.16
44.1500 8086.61
44.4400 7210.44
44.7300 7805.53
45.0200 7839.43
45.3100 7710.85
45.6000 6889.06
45.8900 5916.67
46.1800 5470.43
46.4700 5401.85
46.7600 5346.15
47.0500 5283.1
47.3400 5600
47.6300 5103.9
47.9200 5003.06
48.2100 5152.35
48.5000 4991.45
48.7900 4829.15
49.0800 5019.02
49.3700 5403.35
49.6600 5433.19
49.9500 5644.25
50.2400 5685.47
50.5300 6538.22
50.8200 7618.45
51.1100 7683.77
51.4000 7091.81
51.6900 6249.21
51.9800 5374.53
52.2700 5917.47
52.5600 5305.37
52.8500 5023.7
53.1400 4736.34
53.4300 5197.7
53.7200 5242.69
54.0100 5683.33
54.3000 5839.96
54.5900 6390.69
54.8800 5526.95
55.1700 5323.23
55.4600 5169.4
55.7500 4801.1
56.0400 5119.19
56.3300 4595.64
56.6200 4614.3
56.9100 4667.97
57.2000 4228.56
57.4900 4795.23
57.7800 4965.66
58.0700 4894.74
58.3600 4703.69
58.6500 4803.43
58.9400 4636.27
59.2300 4488.37
59.5200 4727.28
59.8100 4391.44
60.1000 5210.65
60.3900 5087.22
60.6800 5116.06
60.9700 5489.62
61.2600 6272.84
61.5500 6572.98
61.8400 7442.89
62.1300 7985.96
62.4200 7218.16
62.7100 6610.75
63.0000 6969.08
63.2900 6372.2
63.5800 6320.67
63.8700 5248.47
64.1600 5460.79
64.4500 6304.73
64.7400 8002.9
65.0300 9683.33
65.3200 8406.13
65.6100 7870.88
65.9000 6483.07
66.1900 5397.52
66.4800 4779.75
66.7700 4108.88
67.0600 4496.54
67.3500 4458.78
67.6400 4423.01
67.9300 4460.26
68.2200 3985.91
68.5100 4466.3
68.8000 4724.6
69.0900 4769.4
69.3800 4759.2
69.6700 5554.64
69.9600 5404.85
70.2500 5900.3
70.5400 6219.63
70.8300 5943.3
71.1200 5979.81
71.4100 5505.38
71.7000 5216.67
71.9900 4951.91
72.2800 4928.77
72.5700 4952.32
72.8600 4954.26
73.1500 5312.98
73.4400 4957.46
73.7300 5466.67
74.0200 5243.4
74.3100 5297.36
74.6000 4864.52
74.8900 5029.57
75.1800 4856.27
75.4700 5621.78
75.7600 5628.01
76.0500 5646.91
76.3400 5316.67
76.6300 4832.1
76.9200 5178.67
77.2100 5054.25
77.5000 4969.47
77.7900 5101.94
78.0800 5496.63
78.3700 5192.27
78.6600 4350
78.9500 4438.78
79.2400 4388.76
79.5300 4215.97
79.8200 4227.34
80.1100 4388.37
80.4000 4432.43
80.6900 4363.32
80.9800 4575.82
81.2700 4396.81
81.5600 4118.69
81.8500 3821.13
82.1400 3850
82.4300 4014.39
82.7200 4049.6
83.0100 3883
83.3000 3629.9
83.5900 3849.9
83.8800 3682.49
84.1700 3695.14
84.4600 3733.33
84.7500 3661.49
85.0400 3772.64
85.3300 3634.72
85.6200 3554.65
85.9100 3258.34
86.2000 3531.6
86.4900 3756.62
86.7800 3726.56
87.0700 3597.97
87.3600 3564.38
87.6500 3667.39
87.9400 3344.21
88.2300 3690.7
88.5200 3506.91
88.8100 3731.36
89.1000 3771.32
89.3900 3640.59
89.6800 3818.41
89.9700 4039.76
90.0000 4293.85