Folder: GTIIT-HWSettings/Courses/Advance project (MSE)/Mo2Ti2C3/XRD/data

Note: README.md
# **Created by a MSE student from GTIIT**
<div align=center><img width="424" height="128" alt="GtPic" src="https://www.gtiit.edu.cn/images/logo.png"/></div>

## **Foreword**

在广东以色列理工学院，材料系学生的生活是痛苦的。从大一到大四，没有一年是轻松的，愉快的。往前看，你会发现高三的疯狂到这里得到延续，不熬夜几次夜不好意思说是材料的；往后看，你会发现未来的生活早已被铺天盖地的课程绑架，从Jacob(现在退休了)到Gutter(#RIP#),从魔术师KDL到职业橄榄球员Fabian,偶尔会有ofer prag这样的老师闪耀在黑夜中，但也只是昙花一现，不过是黄昏那最后一抹夕阳；往旁边看，生物系的同学要么卷要么摆，人不人鬼不鬼，化工系在床上躺着刷手机，悠然自在，体检都不用去，数机在奔赴梦想，机械在搞高新科技，只有材料，学了几年，啥也不是。回首大学时光，发现当初实在走了太多弯路，以至于现在苦不堪言，于是想创建如此一个Repositories，分享直到现在储存的一些**材料系**作业答案，笔记等，~~以及记录自己编程学习的进度~~。

## **Creator's Personal Info**
**GTIIT MSE 3rd year student.** Favor in Computer Programming and Materials Engineering. Welcome to add my Wechat as friends.
<div align=center><img width="125" height="160" alt="WechatQR" src="https://www.gtiit.edu.cn/images/logo.png"/></div>
## **

 ## **Links**
- [GTIIT Website](https://www.gtiit.edu.cn/)

File: Mo2Ti2C3-daya.dat
5	2450
5.29	2167.36
5.58	2510.54
5.87	2389.44
6.16	2255.415
6.45	2415.24
6.74	2527.1
7.03	2998.93
7.32	4851.42
7.61	70955.735
7.9	6314.58
8.19	3465.01
8.48	2796.79
8.77	2638.4
9.06	2633.475
9.35	2518.95
9.64	2564.52
9.93	2496.26
10.22	2508.36
10.51	2369.71
10.8	2506.47
11.09	2312.225
11.38	2495.41
11.67	2545.16
11.96	2229.97
12.25	2612.06
12.54	2591.75
12.83	2270.025
13.12	2385.31
13.41	2414.84
13.7	2444.92
13.99	2300
14.28	2560.03
14.57	2453.02
14.86	2914.79
15.15	5088.18
15.44	3132.96
15.73	2464.67
16.02	2219.54
16.31	2204.92
16.6	2415.6
16.89	2430.69
17.18	2318.24
17.47	2403.485
17.76	2602.09
18.05	2495.84
18.34	2297.38
18.63	2336.885
18.92	2091.06
19.21	2159.31
19.5	2361.09
19.79	1947.475
20.08	2153.1
20.37	2130.305
20.66	2100.95
20.95	2171.615
21.24	2047.71
21.53	2188.205
21.82	2159.4
22.11	2200.21
22.4	2236.38
22.69	2300
22.98	6247.51
23.27	2111.45
23.56	2031.265
23.85	2034.405
24.14	1808.44
24.43	1971.96
24.72	1920.48
25.01	2140.52
25.3	2838.35
25.59	2259.37
25.88	2325.16
26.17	4214.87
26.46	2495.025
26.75	2577.915
27.04	2685.59
27.33	3834.41
27.62	5959.005
27.91	2433.84
28.2	2197.795
28.49	2126.28
28.78	1876.75
29.07	1937.8
29.36	2017.6
29.65	1945.475
29.94	1893.925
30.23	1591.985
30.52	2085.01
30.81	2567.86
31.1	1490.39
31.39	2091.38
31.68	1719.345
31.97	2133.56
32.26	1685.05
32.55	1933.33
32.84	1714.25
33.13	1926.68
33.42	2107.35
33.71	1981.48
34	2267.75
34.29	2139.15
34.58	1930.16
34.87	2443.87
35.16	2663.28
35.45	1854.26
35.74	2464.58
36.03	4474.845
36.32	3899.25
36.61	2699.98
36.9	3296.91
37.19	4289.36
37.48	9177.97
37.77	4815.49
38.06	5259.66
38.35	8962.84
38.64	74477.135
38.93	6804.22
39.22	4130.27
39.51	3641.71
39.8	2315.43
40.09	2054.3
40.38	2032.865
40.67	2100.78
40.96	2561.69
41.25	5104.4
41.54	13654.425
41.83	3016.67
42.12	2146.5
42.41	2433.96
42.7	2063.63
42.99	2031.745
43.28	3434.93
43.57	2828.95
43.86	3502.36
44.15	2288.135
44.44	1950
44.73	1633.12
45.02	1929.52
45.31	1800
45.6	1822.71
45.89	2015.86
46.18	2279.14
46.47	2539.67
46.76	9615.755
47.05	2929.69
47.34	2023.75
47.63	1919.49
47.92	1757.39
48.21	1701.165
48.5	1814.46
48.79	1885.57
49.08	1636.03
49.37	1806.39
49.66	1836.88
49.95	1776.36
50.24	1486.765
50.53	1562.485
50.82	1738.135
51.11	1707.33
51.4	1672.86
51.69	1671.62
51.98	1814.43
52.27	1823.88
52.56	2099.24
52.85	1716.11
53.14	2008.7
53.43	2023.94
53.72	2269.485
54.01	2314.99
54.3	3507.04
54.59	2627.565
54.88	1781.17
55.17	2229.37
55.46	2018.02
55.75	1950.47
56.04	2032.935
56.33	1916.415
56.62	2348.04
56.91	1687.98
57.2	1930.685
57.49	1499.6
57.78	1615.64
58.07	1882.71
58.36	1736.815
58.65	1845.965
58.94	2465.715
59.23	3732.27
59.52	2030.145
59.81	1841.17
60.1	1687.475
60.39	1666.67
60.68	2150
60.97	3606.755
61.26	2591.06
61.55	1727.97
61.84	1575.42
62.13	1848.04
62.42	2155.88
62.71	2943.27
63	2512.79
63.29	1995.19
63.58	1671.215
63.87	1840.985
64.16	1997.38
64.45	1646.735
64.74	1786.07
65.03	1550.08
65.32	1636.17
65.61	1649.37
65.9	1674.57
66.19	2154.85
66.48	2245.81
66.77	1928.67
67.06	1924.29
67.35	1804.67
67.64	1504.57
67.93	1607.475
68.22	1489.34
68.51	1558.21
68.8	1639.25
69.09	2385.39
69.38	1807.42
69.67	1710.39
69.96	1886.02
70.25	2111.645
70.54	1940.46
70.83	1483.33
71.12	1685.83
71.41	1650
71.7	1633.6
71.99	1798.57
72.28	1615.27
72.57	1731.53
72.86	2596.44
73.15	3267.77
73.44	2125.85
73.73	2314.4
74.02	2579.205
74.31	4873.14
74.6	5127.97
74.89	2503.13
75.18	1840.94
75.47	1993.735
75.76	1726.65
76.05	1858.65
76.34	2334.215
76.63	1943.4
76.92	1789.14
77.21	1604.855
77.5	1518.235
77.79	1253.105
78.08	1602.24
78.37	1610.02
78.66	1813.21
78.95	1527.48
79.24	1659.415
79.53	1675.45
79.82	1712.21
80.11	1826.235
80.4	1514.4
80.69	1509.48
80.98	1709.22
81.27	1424.04
81.56	1625.19
81.85	1683.33
82.14	1958.605
82.43	2052.525
82.72	3483.97
83.01	2919.99
83.3	1821.38
83.59	1845.16
83.88	1535.16
84.17	1542.33
84.46	1838.13
84.75	1733.33
85.04	1683.09
85.33	1458.04
85.62	1592.48
85.91	1313.6
86.2	1417.67
86.49	1640.71
86.78	1594.22
87.07	1569.67
87.36	1638.34
87.65	1562.27
87.94	1592.18
88.23	1437.53
88.52	1527.19
88.81	1503.82
89.1	1570.16
89.39	1444.11
89.68	1662.99
89.97	1906.73
90	1978.82

File: Mo2Ti2C3_Si.dat
3.0000 7283.33
3.2600 6427.48
3.5200 6235.45
3.7800 5583.18
4.0400 5413.57
4.3000 4950.79
4.5600 4855.91
4.8200 4900.5
5.0800 4706.02
5.3400 4580.33
5.6000 4258.7
5.8600 4157.11
6.1200 4059.74
6.3800 3983.28
6.6400 3878.04
6.9000 4158
7.1600 4144.98
7.4200 4161.29
7.6800 4227.12
7.9400 4446.45
8.2000 4189.72
8.4600 4459.87
8.7200 4341.67
8.9800 4360.31
9.2400 4658.5
9.5000 4755.94
9.7600 4583
10.0200 4578.4
10.2800 4704.92
10.5400 4714.52
10.8000 4690.2
11.0600 4735.02
11.3200 4692.51
11.5800 4850.73
11.8400 5052.54
12.1000 4969.12
12.3600 4905.2
12.6200 5074.51
12.8800 5158.1
13.1400 5083.37
13.4000 5184.3
13.6600 5163.69
13.9200 4939.67
14.1800 5081.76
14.4400 5165.6
14.7000 5101.28
14.9600 5377.82
15.2200 5260.55
15.4800 5097.23
15.7400 5530.98
16.0000 5332.05
16.2600 5259.22
16.5200 5049.03
16.7800 5133.33
17.0400 5240.52
17.3000 4841.87
17.5600 5337.45
17.8200 4833.33
18.0800 5089.24
18.3400 5117.67
18.6000 4727.78
18.8600 4850.2
19.1200 5236.01
19.3800 5121.73
19.6400 4810.09
19.9000 4864.67
20.1600 4813.23
20.4200 4506.92
20.6800 4856.9
20.9400 4902.68
21.2000 4813.78
21.4600 4755.65
21.7200 4519.51
21.9800 4562.32
22.2400 4629.79
22.5000 4416.45
22.7600 4364.69
23.0200 4342.48
23.2800 4451.34
23.5400 4339.66
23.8000 4433.26
24.0600 4408.67
24.3200 4425
24.5800 4325.55
24.8400 4940.28
25.1000 4396.32
25.3600 4732.3
25.6200 4295.27
25.8800 4317.7
26.1400 4307.64
26.4000 4340.04
26.6600 4257.55
26.9200 4639.77
27.1800 5110.52
27.4400 7609.54
27.7000 5301.96
27.9600 4796.8
28.2200 4492.26
28.4800 4592.86
28.7400 4647.72
29.0000 4591.48
29.2600 4294.64
29.5200 4401.94
29.7800 4651.82
30.0400 4433.33
30.3000 4553.33
30.5600 4333.77
30.8200 4708.96
31.0800 4667.14
31.3400 4743.62
31.6000 4621.56
31.8600 4528.64
32.1200 4478.25
32.3800 4711.95
32.6400 4801.09
32.9000 4709.63
33.1600 5237.53
33.4200 5166.08
33.6800 5019.46
33.9400 5006.95
34.2000 5340.56
34.4600 5058.82
34.7200 5125.28
34.9800 5348.83
35.2400 5154.82
35.5000 6024.51
35.7600 6300.03
36.0200 7474.24
36.2800 6501.33
36.5400 5347.37
36.8000 5541.28
37.0600 5322.47
37.3200 5362.29
37.5800 5449.54
37.8400 5635.57
38.1000 5456.7
38.3600 5602.78
38.6200 5878.26
38.8800 5687.34
39.1400 5889.36
39.4000 5776.96
39.6600 5289.94
39.9200 5409.46
40.1800 5700.61
40.4400 5863.76
40.7000 5896.33
40.9600 5972.24
41.2200 6910.99
41.4800 7389.74
41.7400 7365.02
42.0000 6473.16
42.2600 6119.06
42.5200 5797.71
42.7800 5393.48
43.0400 5669.02
43.3000 5521.61
43.5600 6058.27
43.8200 6622.5
44.0800 6601.85
44.3400 10861.9
44.6000 16085.3
44.8600 5747.38
45.1200 5462.11
45.3800 5216.23
45.6400 5196.47
45.9000 5341.61
46.1600 5498.47
46.4200 5229
46.6800 5250.73
46.9400 4990.29
47.2000 5295.71
47.4600 5156.59
47.7200 5208.7
47.9800 5064.04
48.2400 5330.57
48.5000 5366.1
48.7600 5234.55
49.0200 5287.05
49.2800 5172.73
49.5400 5315.78
49.8000 5122.73
50.0600 5148.14
50.3200 4950.81
50.5800 5188.95
50.8400 5202.29
51.1000 5499.32
51.3600 5414.82
51.6200 6561.69
51.8800 13824
52.1400 5600.78
52.4000 5333.7
52.6600 5150.96
52.9200 5449.76
53.1800 5323.56
53.4400 5388.68
53.7000 5504.56
53.9600 5858.22
54.2200 6950.83
54.4800 7467.17
54.7400 5415.23
55.0000 5502.2
55.2600 5440.49
55.5200 5363.82
55.7800 5397.21
56.0400 5465.32
56.3000 5515.31
56.5600 6080.02
56.8200 6128.7
57.0800 5621.92
57.3400 5749.53
57.6000 5709.28
57.8600 6072.02
58.1200 5972.94
58.3800 6201.65
58.6400 6126.68
58.9000 5874.36
59.1600 5941.48
59.4200 5939.36
59.6800 5977.26
59.9400 6370.18
60.2000 6722.96
60.4600 7225.04
60.7200 6664.72
60.9800 6423.12
61.2400 5896.68
61.5000 5604.93
61.7600 5877.76
62.0200 5858.68
62.2800 5683.82
62.5400 5781.78
62.8000 6144.34
63.0600 5834.95
63.3200 5838.03
63.5800 5729.11
63.8400 5654.22
64.1000 6206.81
64.3600 5448.36
64.6200 5685.53
64.8800 5536.65
65.1400 5566.25
65.4000 5541.09
65.6600 5547.81
65.9200 5623.78
66.1800 5623.17
66.4400 5893.65
66.7000 5792.4
66.9600 5891.23
67.2200 5918.15
67.4800 5895.99
67.7400 5874.92
68.0000 5756.97
68.2600 5664.77
68.5200 5562.51
68.7800 6152.8
69.0400 6533.97
69.3000 6069.04
69.5600 5526.54
69.8200 6257.05
70.0800 5709.6
70.3400 5993.31
70.6000 5669.69
70.8600 5786.66
71.1200 5991.26
71.3800 5870.07
71.6400 5891.67
71.9000 5994.56
72.1600 6220.19
72.4200 6360.19
72.6800 6146.85
72.9400 5999.22
73.2000 5873.1
73.4600 5756.86
73.7200 5809.9
73.9800 5885.24
74.2400 5817.24
74.5000 5786.96
74.7600 5609.76
75.0200 5951.09
75.2800 5903.59
75.5400 5837.32
75.8000 5957.03
76.0600 6491.67
76.3200 9242.57
76.5800 7654.18
76.8400 6047.62
77.1000 5810.55
77.3600 5656.75
77.6200 5827.6
77.8800 5766.23
78.1400 5755.81
78.4000 5847.59
78.6600 5691.39
78.9200 5752.26
79.1800 5729.56
79.4400 5603.84
79.7000 5721.59
79.9600 5496.95
80.0000 5794.17

File: P4  0001.dat
4.18115  5.85954
4.27762  3.196
4.37408  3.09574
4.47055  -0.836057
4.56702  10.7523
4.66349  70.293
4.75995  12.2114
4.85642  7.13089
4.95289  52.6613
5.04935  12.2263
5.14582  -2.13971
5.24229  -0.66633
5.33875  1.29515
5.43522  19.808
5.53169  34.8377
5.62816  49.5012
5.72462  40.33
5.82109  25.3476
5.91756  14.9541
6.01402  11.3812
6.11049  8.49994
6.20696  26.3347
6.30342  23.8488
6.39989  21.5097
6.49636  17.5575
6.59283  6.85181
6.68929  -2.22616
6.78576  -1.03003
6.88223  0.897534
6.97869  -0.354796
7.07516  0.556918
7.17163  5.41654
7.26809  3.60501
7.36456  1.09968
7.46103  -0.685658
7.5575  -2.65809
7.65396  6.95144
7.75043  14.8891
7.8469  14.5428
7.94336  82.4718
8.03983  177.19
8.1363  93.9433
8.23276  52.2982
8.32923  31.0815
8.4257  6.06845
8.52217  0.0299574
8.61863  4.67631
8.7151  36.3304
8.81157  243.243
8.90803  919.264
9.0045  307.087
9.10097  35.8333
9.19743  25.919
9.2939  71.9073
9.39037  51.1605
9.48684  17.931
9.5833  49.4265
9.67977  54.2237
9.77624  24.0755
9.8727  22.8344
9.96917  23.664
10.0656  1.93449
10.1621  -5.50597
10.2586  -10.3266
10.355  0.243242
10.4515  42.8963
10.548  116.339
10.6444  169.736
10.7409  205.327
10.8374  246.774
10.9338  243.45
11.0303  155.599
11.1268  77.4565
11.2232  82.1856
11.3197  164.645
11.4162  367.362
11.5126  659.103
11.6091  601.23
11.7056  307.413
11.802  114.012
11.8985  33.7554
11.995  16.583
12.0914  13.6716
12.1879  20.89
12.2844  52.5371
12.3808  104.844
12.4773  163.063
12.5738  152.279
12.6702  95.4546
12.7667  45.9154
12.8632  27.4062
12.9596  39.5753
13.0561  136.631
13.1526  372.359
13.249  473.009
13.3455  430.343
13.442  307.096
13.5384  169.954
13.6349  85.4384
13.7314  51.8685
13.8279  78.2244
13.9243  179.969
14.0208  71.1853
14.1173  171.082
14.2137  419.933
14.3102  241.426
14.4067  55.8256
14.5031  28.1335
14.5996  0.262023
14.6961  -0.570765
14.7925  8.76509
14.889  -3.28935
14.9855  13.7766
15.0819  17.2517
15.1784  31.1524
15.2749  55.0976
15.3713  52.9639
15.4678  24.6123
15.5643  5.87044
15.6607  -5.1166
15.7572  -6.29029
15.8537  -5.67953
15.9501  6.71303
16.0466  19.3846
16.1431  49.1773
16.2395  63.5846
16.336  174.171
16.4325  571.861
16.5289  287.911
16.6254  100.043
16.7219  71.8905
16.8183  40.646
16.9148  125.459
17.0113  268.603
17.1077  331.738
17.2042  268.6
17.3007  167.023
17.3971  72.4659
17.4936  6.26908
17.5901  -6.29472
17.6865  0.0466857
17.783  64.5615
17.8795  123.22
17.9759  105.554
18.0724  106.472
18.1689  175.257
18.2653  241.901
18.3618  236.514
18.4583  181.549
18.5547  165.054
18.6512  200.876
18.7477  263.716
18.8441  294.506
18.9406  246.888
19.0371  160
19.1335  87.3144
19.23  46.8288
19.3265  47.9368
19.4229  63.91
19.5194  61.6363
19.6159  36.0789
19.7123  21.0397
19.8088  14.8992
19.9053  3.37113
20.0017  -2.07783
20.0982  -3.55558
20.1947  -5.27238
20.2911  -6.74412
20.3876  -1.01218
20.4841  7.95915
20.5805  21.9954
20.677  39.0962
20.7735  53.8462
20.8699  62.9368
20.9664  73.9839
21.0629  76.8245
21.1593  68.2612
21.2558  60.3517
21.3523  69.2197
21.4487  62.5972
21.5452  33.5467
21.6417  2.59531
21.7381  -1.17352
21.8346  5.10279
21.9311  27.819
22.0275  55.9302
22.124  85.0027
22.2205  98.4719
22.3169  82.5063
22.4134  62.3391
22.5099  45.7409
22.6063  40.8508
22.7028  47.6664
22.7993  68.9973
22.8957  94.0395
22.9922  108.993
23.0887  92.3108
23.1851  193.809
23.2816  519.538
23.3781  470.168
23.4745  131.154
23.571  34.2731
23.6675  9.78451
23.764  2.21444
23.8604  -1.96709
23.9569  5.14671
24.0534  3.44966
24.1498  3.65868
24.2463  3.4638
24.3428  2.36872
24.4392  -4.49676
24.5357  1.69587
24.6322  6.83449
24.7286  14.4245
24.8251  22.6512
24.9216  18.6851
25.018  18.5854
25.1145  10.9881
25.211  8.41972
25.3074  3.59771
25.4039  3.40305
25.5004  4.65075
25.5968  0.363489
25.6933  -1.33088
25.7898  5.87899
25.8862  13.8679
25.9827  20.8716
26.0792  31.1653
26.1756  57.239
26.2721  67.3419
26.3686  61.9813
26.465  76.1193
26.5615  84.9608
26.658  86.8012
26.7544  87.4881
26.8509  90.8037
26.9474  96.683
27.0438  110.89
27.1403  138.959
27.2368  21.0933
27.3332  145.074
27.4297  225.723
27.5262  314.35
27.6226  122.548
27.7191  67.6058
27.8156  57.7762
27.912  56.4621
28.0085  56.7093
28.105  46.9203
28.2014  49.3732
28.2979  41.6069
28.3944  37.8422
28.4908  39.6161
28.5873  78.1588
28.6838  128.344
28.7802  133.89
28.8767  71.5836
28.9732  57.3731
29.0696  47.7601
29.1661  32.4292
29.2626  38.6408
29.359  22.5202
29.4555  22.3699
29.552  2.07406
29.6484  -6.24159
29.7449  4.33712
29.8028  2.08715

File: P5  0001.dat
4.1913  6.37465
4.28809  5.24824
4.38488  1.54125
4.48166  1.78907
4.57845  7.91143
4.67524  49.0326
4.77203  12.9289
4.86882  4.70686
4.96561  40.8887
5.0624  9.8087
5.15919  0.591706
5.25598  -1.21447
5.35277  4.45176
5.44956  11.9325
5.54635  19.3165
5.64313  20.0915
5.73992  24.9486
5.83671  19.2156
5.9335  13.2273
6.03029  13.8606
6.12708  12.9949
6.22387  14.6441
6.32066  9.29438
6.41745  4.62784
6.51424  1.06205
6.61103  1.45639
6.70782  -0.380916
6.80461  -2.48598
6.90139  -0.653965
6.99818  0.969781
7.09497  1.52166
7.19176  1.8092
7.28855  1.86926
7.38534  4.29748
7.48213  -1.48419
7.57892  -1.79616
7.67571  2.30102
7.7725  11.684
7.86929  16.0202
7.96608  79.4405
8.06287  130.301
8.15965  68.049
8.25644  42.6803
8.35323  40.7963
8.45002  18.8946
8.54681  7.34134
8.6436  -1.51258
8.74039  17.4105
8.83718  156.998
8.93397  607.835
9.03076  272.702
9.12755  38.5925
9.22434  18.0336
9.32112  42.6467
9.41791  33.5018
9.5147  14.6917
9.61149  33.2367
9.70828  52.869
9.80507  48.675
9.90186  28.5114
9.99865  16.2606
10.0954  -0.559763
10.1922  -7.34119
10.289  -7.68032
10.3858  3.976
10.4826  41.0916
10.5794  105.085
10.6762  146.815
10.773  196.555
10.8698  264.039
10.9665  270.474
11.0633  159.135
11.1601  72.1274
11.2569  81.134
11.3537  161.978
11.4505  329.446
11.5473  477.934
11.6441  414.777
11.7409  242.762
11.8376  106.056
11.9344  44.9631
12.0312  27.03
12.128  16.4029
12.2248  19.0755
12.3216  40.6382
12.4184  75.2317
12.5152  119.649
12.612  127.925
12.7087  84.4773
12.8055  35.8195
12.9023  18.5979
12.9991  32.7223
13.0959  121.739
13.1927  297.13
13.2895  409.469
13.3863  400.099
13.4831  298.637
13.5798  181.076
13.6766  96.8429
13.7734  67.3482
13.8702  90.3166
13.967  202.103
14.0638  331.447
14.1606  318.2
14.2574  1183.37
14.3542  449.641
14.451  78.7904
14.5477  22.286
14.6445  -4.52416
14.7413  -2.35371
14.8381  6.27223
14.9349  8.66023
15.0317  10.0691
15.1285  16.9723
15.2253  25.3617
15.3221  43.1198
15.4188  42.3809
15.5156  22.1114
15.6124  1.63539
15.7092  -3.95532
15.806  -9.83117
15.9028  -6.36024
15.9996  0.75021
16.0964  20.602
16.1932  47.0877
16.2899  76.3804
16.3867  205.675
16.4835  503.943
16.5803  283.065
16.6771  57.7458
16.7739  40.1979
16.8707  53.2627
16.9675  109.535
17.0643  183.395
17.1611  196.836
17.2578  163.16
17.3546  119.495
17.4514  52.8376
17.5482  19.3568
17.645  -4.22567
17.7418  -3.51652
17.8386  40.3132
17.9354  98.4174
18.0322  112.499
18.1289  118.438
18.2257  154.325
18.3225  188.607
18.4193  190.247
18.5161  188.214
18.6129  208.215
18.7097  248.944
18.8065  293.325
18.9033  284.484
19  220.15
19.0968  140.797
19.1936  78.4953
19.2904  45.1673
19.3872  33.0042
19.484  37.6113
19.5808  29.6777
19.6776  18.5579
19.7744  12.9033
19.8711  8.99199
19.9679  0.708041
20.0647  -6.1658
20.1615  -8.75976
20.2583  -7.5983
20.3551  0.533166
20.4519  11.5345
20.5487  23.4356
20.6455  35.2223
20.7423  44.7393
20.839  57.9971
20.9358  60.7435
21.0326  59.2763
21.1294  48.2911
21.2262  32.23
21.323  21.5342
21.4198  19.4465
21.5166  14.7466
21.6134  5.4812
21.7101  4.58409
21.8069  4.7102
21.9037  17.268
22.0005  33.203
22.0973  56.2185
22.1941  76.3847
22.2909  76.9468
22.3877  63.4273
22.4845  48.6031
22.5812  39.8578
22.678  36.0064
22.7748  47.8479
22.8716  66.7233
22.9684  86.8256
23.0652  104.029
23.162  112.977
23.2588  141.136
23.3556  191.747
23.4523  232.06
23.5491  106.965
23.6459  47.3048
23.7427  15.3545
23.8395  4.14441
23.9363  2.57219
24.0331  1.82751
24.1299  4.39031
24.2267  4.21776
24.3235  3.09804
24.4202  -1.96441
24.517  -3.74365
24.6138  -0.795301
24.7106  0.0788138
24.8074  7.56102
24.9042  5.51853
25.001  6.38929
25.0978  8.25406
25.1946  6.23212
25.2913  4.85405
25.3881  2.62683
25.4849  1.33328
25.5817  -3.11037
25.6785  0.615201
25.7753  3.33577
25.8721  8.25578
25.9689  13.7961
26.0657  22.3095
26.1624  38.3079
26.2592  48.5246
26.356  36.6764
26.4528  31.4898
26.5496  49.3766
26.6464  65.5892
26.7432  70.4482
26.84  79.2555
26.9368  97.2486
27.0335  99.6906
27.1303  86.8849
27.2271  81.3142
27.3239  97.2075
27.4207  199.422
27.5175  232.391
27.6143  233.347
27.7111  120.751
27.8079  72.7557
27.9047  40.5299
28.0014  26.1295
28.0982  24.4861
28.195  29.7886
28.2918  35.3466
28.3886  27.0048
28.4854  23.1617
28.5822  27.9269
28.679  56.3122
28.7758  133.192
28.8725  116.572
28.9693  49.3749
29.0661  29.3727
29.1629  23.7554
29.2597  9.13479
29.3565  5.40827
29.4533  10.3481
29.5501  18.5724
29.6469  -1.07952
29.7436  0.89858
29.7824  -1.62372

File: P7  0001.dat
4.24937  7.78799
4.34616  5.66875
4.44295  3.46235
4.53974  2.31579
4.63653  -0.458977
4.73332  6.53356
4.83011  3.17327
4.92689  8.48886
5.02368  2.66612
5.12047  -0.13029
5.21726  6.33662
5.31405  -3.08771
5.41084  1.36367
5.50763  2.87437
5.60442  5.66058
5.70121  0.132304
5.798  1.27206
5.89479  3.07956
5.99158  1.65389
6.08837  2.02609
6.18515  6.34375
6.28194  4.90829
6.37873  8.09295
6.47552  1.08615
6.57231  0.622525
6.6691  1.38818
6.76589  -2.0536
6.86268  -0.00357936
6.95947  1.43171
7.05626  0.452504
7.15305  1.80358
7.24984  1.32613
7.34663  0.493026
7.44341  1.68004
7.5402  0.570133
7.63699  -1.601
7.73378  -0.618999
7.83057  0.124438
7.92736  2.48507
8.02415  6.70903
8.12094  19.1134
8.21773  18.9893
8.31452  34.8101
8.41131  49.5247
8.5081  40.6024
8.60488  21.2709
8.70167  6.06976
8.79846  0.186943
8.89525  12.8892
8.99204  72.0284
9.08883  36.7354
9.18562  10.4282
9.28241  1.55606
9.3792  -2.01559
9.47599  -3.33225
9.57278  -0.894441
9.66957  11.1804
9.76636  48.5827
9.86314  100.27
9.95993  119.635
10.0567  74.2282
10.1535  26.5914
10.2503  1.20653
10.3471  -2.66828
10.4439  16.2365
10.5407  40.908
10.6375  76.1493
10.7342  112.219
10.831  165.795
10.9278  226.724
11.0246  221.869
11.1214  134.443
11.2182  65.6119
11.315  65.7368
11.4118  106.666
11.5086  180.131
11.6054  245.563
11.7021  210.612
11.7989  120.145
11.8957  52.4115
11.9925  28.561
12.0893  20.9649
12.1861  15.1555
12.2829  6.71889
12.3797  -1.40084
12.4765  10.1257
12.5732  25.7778
12.67  42.6843
12.7668  47.6677
12.8636  42.8329
12.9604  31.322
13.0572  32.6591
13.154  70.3779
13.2508  133
13.3476  235.408
13.4443  327.585
13.5411  314.351
13.6379  220.806
13.7347  125.299
13.8315  75.6225
13.9283  79.3466
14.0251  139.324
14.1219  260.029
14.2187  287.886
14.3154  238.985
14.4122  734.995
14.509  566.947
14.6058  62.685
14.7026  18.1651
14.7994  20.8337
14.8962  -5.37944
14.993  9.56853
15.0898  10.322
15.1866  -2.08404
15.2833  -1.53669
15.3801  3.18857
15.4769  10.0084
15.5737  11.3752
15.6705  12.8064
15.7673  3.84956
15.8641  -1.98478
15.9609  -4.66586
16.0577  1.42969
16.1544  16.5138
16.2512  35.8566
16.348  55.7007
16.4448  94.3236
16.5416  171.95
16.6384  440.665
16.7352  578.629
16.832  419.257
16.9288  126.332
17.0255  79.1975
17.1223  64.5959
17.2191  54.3983
17.3159  38.905
17.4127  23.4651
17.5095  12.5477
17.6063  8.31638
17.7031  -4.95982
17.7999  -6.68097
17.8966  -6.04501
17.9934  18.3432
18.0902  49.6984
18.187  86.3255
18.2838  120.655
18.3806  157.631
18.4774  183.396
18.5742  210.373
18.671  232.641
18.7678  257.057
18.8645  273.446
18.9613  277.561
19.0581  247.157
19.1549  195.066
19.2517  136.502
19.3485  85.3879
19.4453  47.5114
19.5421  22.9747
19.6389  10.0277
19.7356  7.92129
19.8324  8.85376
19.9292  9.15949
20.026  5.19731
20.1228  -0.991064
20.2196  -6.58705
20.3164  -5.68877
20.4132  -1.13408
20.51  2.52582
20.6067  12.2083
20.7035  26.723
20.8003  32.8481
20.8971  39.9748
20.9939  43.6272
21.0907  38.6196
21.1875  33.7667
21.2843  23.1829
21.3811  10.5657
21.4778  1.50774
21.5746  -0.459644
21.6714  -0.737106
21.7682  7.85881
21.865  12.4352
21.9618  17.9204
22.0586  28.7998
22.1554  44.9316
22.2522  59.5605
22.349  68.8344
22.4457  71.0514
22.5425  62.2778
22.6393  48.1437
22.7361  37.6713
22.8329  33.0799
22.9297  34.1669
23.0265  37.1915
23.1233  54.127
23.2201  67.9835
23.3168  75.2635
23.4136  80.9835
23.5104  122.228
23.6072  213.706
23.704  287.728
23.8008  138.247
23.8976  52.6198
23.9944  9.78134
24.0912  4.60234
24.1879  2.68564
24.2847  3.21807
24.3815  3.0764
24.4783  1.43714
24.5751  -0.23985
24.6719  1.71907
24.7687  1.76797
24.8655  1.67739
24.9623  0.813049
25.059  4.36753
25.1558  -0.643077
25.2526  2.56333
25.3494  3.62021
25.4462  6.073
25.543  9.38743
25.6398  -1.89457
25.7366  3.90546
25.8334  13.4626
25.9302  16.3538
26.0269  27.7017
26.1237  41.9215
26.2205  61.1333
26.3173  55.9571
26.4141  33.1763
26.5109  30.5384
26.6077  36.2456
26.7045  48.616
26.8013  55.6863
26.898  74.0938
26.9948  85.0257
27.0916  103.995
27.1884  109.005
27.2852  108.271
27.382  105.751
27.4788  103.242
27.5756  147.331
27.6724  99.6474
27.7691  205.336
27.8659  299.598
27.9627  145.774
28.0595  25.3406
28.1563  70.538
28.2531  57.2567
28.3499  46.9965
28.4467  34.4919
28.5435  40.3408
28.6403  43.1647
28.737  45.597
28.8338  45.5685
28.9306  56.4249
29.0274  88.0751
29.1242  192.32
29.221  148.684
29.3178  59.8134
29.4146  17.9017
29.5114  -1.83707
29.6081  2.31899
29.7049  3.71719
29.7243  -1.43264