Folder: GTIIT-HWSettings/Courses/Advance project (MSE)/Mo2Ti2C3/XRD/data (part 2)

File: P9  0001.dat
4.33375  6.02929
4.43073  4.4776
4.52771  4.1959
4.62469  0.907152
4.72168  2.47191
4.81866  -0.94305
4.91564  -0.0017909
5.01262  4.44522
5.1096  3.70186
5.20658  2.02664
5.30356  -3.26944
5.40055  3.98347
5.49753  1.28829
5.59451  8.01698
5.69149  0.151409
5.78847  -0.295419
5.88545  3.25761
5.98243  1.30921
6.07942  1.80571
6.1764  5.70911
6.27338  3.34777
6.37036  2.62814
6.46734  2.14586
6.56432  0.408033
6.66131  -0.837259
6.75829  1.12645
6.85527  1.16469
6.95225  0.0720596
7.04923  1.33642
7.14621  0.511226
7.24319  1.86678
7.34018  4.19535
7.43716  1.29869
7.53414  0.503246
7.63112  -1.3426
7.7281  -0.61533
7.82508  -1.12639
7.92206  1.38945
8.01905  8.85723
8.11603  12.9607
8.21301  15.7476
8.30999  22.9744
8.40697  37.1063
8.50395  40.5722
8.60093  26.2122
8.69792  12.0331
8.7949  0.616221
8.89188  3.44418
8.98886  20.0712
9.08584  17.1457
9.18282  13.1772
9.27981  8.77547
9.37679  3.44263
9.47377  -4.0017
9.57075  -2.08781
9.66773  2.92394
9.76471  21.9721
9.86169  70.0598
9.95868  114.54
10.0557  104.447
10.1526  55.9608
10.2496  16.0321
10.3466  4.58306
10.4436  17.324
10.5406  38.0307
10.6375  71.0869
10.7345  93.6031
10.8315  124.111
10.9285  163.992
11.0255  175.657
11.1225  128.931
11.2194  69.9916
11.3164  51.5698
11.4134  68.2661
11.5104  112.35
11.6074  174.367
11.7043  170.942
11.8013  103.725
11.8983  41.0845
11.9953  19.1883
12.0923  12.8357
12.1892  14.8094
12.2862  10.4496
12.3832  -2.1831
12.4802  0.904958
12.5772  6.96566
12.6742  22.1378
12.7711  36.3433
12.8681  36.872
12.9651  29.2088
13.0621  24.1956
13.1591  38.8431
13.256  64.8333
13.353  117.612
13.45  186.167
13.547  220.903
13.644  183.635
13.741  114.795
13.8379  66.0792
13.9349  58.5368
14.0319  89.8044
14.1289  196.839
14.2259  327.328
14.3228  335.68
14.4198  398.594
14.5168  859.339
14.6138  290.356
14.7108  83.7425
14.8077  34.7643
14.9047  0.27254
15.0017  6.29246
15.0987  6.44949
15.1957  -0.0413271
15.2927  -1.74292
15.3896  -3.92183
15.4866  0.856249
15.5836  2.39622
15.6806  7.24637
15.7776  3.22642
15.8745  -0.682712
15.9715  -3.75169
16.0685  -0.531567
16.1655  12.3241
16.2625  33.7304
16.3595  49.8059
16.4564  66.8783
16.5534  121.938
16.6504  227.074
16.7474  532.414
16.8444  593.806
16.9413  300.381
17.0383  101.114
17.1353  58.7764
17.2323  49.6897
17.3293  32.8319
17.4262  18.2755
17.5232  17.701
17.6202  11.7155
17.7172  -0.849363
17.8142  -5.15296
17.9112  -5.44269
18.0081  9.99861
18.1051  34.868
18.2021  60.8721
18.2991  97.8046
18.3961  134.351
18.493  164.544
18.59  193.658
18.687  209.599
18.784  214.161
18.881  215.7
18.978  210.89
19.0749  194.966
19.1719  163.209
19.2689  122.885
19.3659  84.0889
19.4629  54.0451
19.5598  30.5439
19.6568  14.6895
19.7538  9.06156
19.8508  9.12303
19.9478  8.57132
20.0447  3.54004
20.1417  -2.01525
20.2387  -4.33075
20.3357  -4.91317
20.4327  -2.03638
20.5297  0.384902
20.6266  6.27913
20.7236  11.3679
20.8206  20.1167
20.9176  25.3224
21.0146  27.9608
21.1115  26.4593
21.2085  24.7871
21.3055  20.0738
21.4025  9.76448
21.4995  2.31054
21.5965  -0.546912
21.6934  3.49315
21.7904  5.78422
21.8874  8.88601
21.9844  10.6482
22.0814  13.8239
22.1783  24.506
22.2753  32.6739
22.3723  43.2556
22.4693  46.2161
22.5663  45.9387
22.6632  36.0814
22.7602  31.0193
22.8572  22.9976
22.9542  21.4287
23.0512  20.644
23.1482  34.1784
23.2451  45.9299
23.3421  51.5717
23.4391  57.1163
23.5361  71.1447
23.6331  101.134
23.73  255.345
23.827  509.99
23.924  409.04
24.021  156.373
24.118  28.6307
24.215  8.11133
24.3119  3.36558
24.4089  1.38332
24.5059  3.01776
24.6029  1.31714
24.6999  -0.705486
24.7968  4.24751
24.8938  1.98876
24.9908  0.68824
25.0878  1.71749
25.1848  -0.0416691
25.2817  -1.70949
25.3787  -1.43444
25.4757  1.49513
25.5727  1.93702
25.6697  0.740245
25.7667  3.34168
25.8636  13.0232
25.9606  20.0979
26.0576  26.9645
26.1546  43.7388
26.2516  52.9969
26.3485  33.3777
26.4455  23.3561
26.5425  25.8917
26.6395  26.8178
26.7365  32.2353
26.8335  33.6613
26.9304  44.3498
27.0274  52.7867
27.1244  59.7961
27.2214  62.9916
27.3184  67.5627
27.4153  68.7758
27.5123  67.7714
27.6093  54.1423
27.7063  64.4431
27.8033  97.5787
27.9002  272.506
27.9972  620.006
28.0942  466.422
28.1912  379.87
28.2882  87.1078
28.3852  29.2881
28.4821  8.41762
28.5791  13.7102
28.6761  14.2202
28.7731  14.2149
28.8701  7.59437
28.967  1.67794
29.064  -0.534526
29.161  12.9597
29.258  71.6641
29.355  114.991
29.452  25.1723
29.5489  -6.90449
29.6459  -6.27844

File: P10  0001.dat
4.37222  6.41541
4.46884  4.36939
4.56546  5.14566
4.66208  3.61325
4.7587  7.47652
4.85532  1.77909
4.95194  5.70587
5.04855  5.70974
5.14517  0.0928809
5.24179  5.84973
5.33841  -4.20684
5.43503  2.2474
5.53165  4.17761
5.62827  6.09605
5.72489  5.68357
5.8215  0.585939
5.91812  -0.629051
6.01474  1.44277
6.11136  0.0404122
6.20798  4.5404
6.3046  2.11412
6.40122  4.24243
6.49784  0.02341
6.59445  2.46795
6.69107  0.447455
6.78769  -0.420273
6.88431  1.93018
6.98093  1.86627
7.07755  1.53338
7.17417  4.21554
7.27079  2.24229
7.3674  2.12634
7.46402  1.67471
7.56064  -1.27751
7.65726  -1.04006
7.75388  -0.642251
7.8505  -0.12821
7.94712  3.2845
8.04374  4.03138
8.14035  12.0136
8.23697  16.9308
8.33359  20.1234
8.43021  33.7445
8.52683  34.7542
8.62345  23.6738
8.72007  12.345
8.81669  2.04789
8.91331  0.497895
9.00992  8.81096
9.10654  -0.7111
9.20316  12.5341
9.29978  5.77201
9.3964  2.38409
9.49302  -2.11159
9.58964  -4.83261
9.68626  2.75916
9.78287  18.9459
9.87949  61.2646
9.97611  110.153
10.0727  115.296
10.1693  74.9586
10.266  28.6249
10.3626  10.2758
10.4592  17.9342
10.5558  44.379
10.6524  68.9128
10.7491  90.8567
10.8457  113.173
10.9423  145.312
11.0389  155.292
11.1355  127.566
11.2322  78.481
11.3288  54.4658
11.4254  59.8624
11.522  104.81
11.6186  171.492
11.7152  173.94
11.8119  113.326
11.9085  43.0029
12.0051  18.9396
12.1017  9.03216
12.1983  11.068
12.295  10.6245
12.3916  3.72969
12.4882  -3.9873
12.5848  1.75492
12.6814  15.0029
12.7781  31.3105
12.8747  38.6298
12.9713  31.386
13.0679  24.5695
13.1645  32.2589
13.2611  53.3395
13.3578  88.0628
13.4544  149.786
13.551  201.334
13.6476  182.672
13.7442  125.004
13.8409  75.5207
13.9375  52.4996
14.0341  68.0059
14.1307  125.187
14.2273  322.026
14.324  499.256
14.4206  294.536
14.5172  734.621
14.6138  1045.99
14.7104  149.039
14.8071  35.6865
14.9037  6.68657
15.0003  10.9964
15.0969  6.95352
15.1935  -0.0885992
15.2901  -1.32907
15.3868  -1.99169
15.4834  -2.5053
15.58  1.4043
15.6766  6.32782
15.7732  4.37349
15.8699  2.96994
15.9665  -1.87154
16.0631  -1.45379
16.1597  4.49178
16.2563  18.6465
16.353  39.639
16.4496  75.2531
16.5462  90.6791
16.6428  131.896
16.7394  354.041
16.836  762.519
16.9327  541.849
17.0293  203.098
17.1259  91.8545
17.2225  48.0747
17.3191  45.4988
17.4158  26.9492
17.5124  20.5953
17.609  17.0242
17.7056  6.80047
17.8022  -1.99976
17.8989  -8.07515
17.9955  -0.0987316
18.0921  12.5723
18.1887  33.2874
18.2853  61.6174
18.3819  97.7242
18.4786  127.927
18.5752  164.144
18.6718  189.222
18.7684  207.188
18.865  205.31
18.9617  202.092
19.0583  195.481
19.1549  178.025
19.2515  143.183
19.3481  107.131
19.4448  72.1542
19.5414  47.3234
19.638  28.5818
19.7346  16.7167
19.8312  13.6093
19.9278  7.67957
20.0245  5.30913
20.1211  0.314602
20.2177  -0.861
20.3143  -3.16215
20.4109  -3.6501
20.5076  -4.56167
20.6042  1.78494
20.7008  5.601
20.7974  12.4222
20.894  16.8306
20.9907  21.5978
21.0873  26.0784
21.1839  25.7989
21.2805  18.9315
21.3771  13.0045
21.4737  3.66269
21.5704  3.99607
21.667  0.758691
21.7636  4.87189
21.8602  9.38776
21.9568  10.4622
22.0535  12.4111
22.1501  19.6963
22.2467  24.1311
22.3433  32.8722
22.4399  41.3719
22.5366  40.3818
22.6332  40.1636
22.7298  32.747
22.8264  22.9598
22.923  17.3776
23.0196  11.992
23.1163  18.4101
23.2129  24.8673
23.3095  34.2335
23.4061  53.9608
23.5027  61.9983
23.5994  103.654
23.696  123.812
23.7926  207.962
23.8892  652.358
23.9858  727.896
24.0825  193.108
24.1791  44.769
24.2757  20.3948
24.3723  7.64148
24.4689  3.66454
24.5655  0.273111
24.6622  1.43386
24.7588  4.50338
24.8554  4.2341
24.952  2.58648
25.0486  1.85588
25.1453  2.61444
25.2419  -0.74144
25.3385  -0.978907
25.4351  2.32708
25.5317  1.61847
25.6284  1.45601
25.725  3.35202
25.8216  12.9168
25.9182  15.5629
26.0148  35.1665
26.1114  46.6008
26.2081  67.0591
26.3047  64.3548
26.4013  45.9324
26.4979  41.7843
26.5945  46.1506
26.6912  49.3163
26.7878  56.0295
26.8844  63.8936
26.981  73.1946
27.0776  83.4461
27.1743  92.1359
27.2709  102.742
27.3675  110.525
27.4641  113.829
27.5607  82.8806
27.6573  42.1903
27.754  10.605
27.8506  30.9856
27.9472  211.195
28.0438  518.864
28.1404  611.555
28.2371  523.446
28.3337  253.368
28.4303  95.2809
28.5269  58.9936
28.6235  42.2177
28.7202  35.0654
28.8168  27.9982
28.9134  14.7571
29.01  2.43001
29.1066  0.00155041
29.2032  2.78068
29.2999  -2.90931
29.3965  -2.40113
29.4931  -2.28805
29.5897  9.80603
29.609  -5.84666